Folder: raman-analysis/data/TGA_Ana

File: TGA_Data.csv
C,Biochar Hummers,C,Biochar Oxidizer,C,Coal EL Hummers,C,Coal EL Oxidizer,C,Coal EL Hummers Char,C,Coal EL Oxidizer Char,C,Coal Hummers,C,Coal Oxidizer,C,Coal Char Hummers,C,Coal Char Oxidizer
34.5,100,34.69,99.97,30.04,99.83,34.78,99.98,34.61,99.97,34.4,99.97,34.55,99.99,34.61,99.99,30.09,99.85,34.65,100
46.34,99.36,46.59,99.48,45.31,98.94,46.63,99.66,46.55,99.56,46.26,99.38,46.34,99.51,46.43,99.65,45.29,99.23,46.55,99.6
60.99,98.09,61.23,98.42,59.99,97.16,61.27,98.99,61.19,98.43,60.9,97.9,60.98,98.38,61.08,98.9,59.97,98.02,61.2,98.68
75.6,96.94,75.84,97.51,74.57,95.56,75.88,98.26,75.79,97.12,75.52,96.33,75.59,96.96,75.69,98.14,74.56,96.92,75.8,97.82
90.14,96.17,90.38,96.92,89.1,94.37,90.42,97.59,90.33,96.01,90.06,95.13,90.14,95.78,90.23,97.6,89.1,96.19,90.35,97.23
104.64,95.64,104.89,96.44,103.61,93.58,104.93,96.86,104.84,95.17,104.57,94.26,104.64,94.99,104.74,97.26,103.6,95.74,104.86,96.84
119.14,95.2,119.38,95.79,118.1,93.02,119.41,96.03,119.33,94.48,119.06,93.45,119.13,94.45,119.23,97.01,118.09,95.43,119.35,96.53
133.62,94.78,133.87,94.89,132.58,92.48,133.9,95.08,133.82,93.81,133.55,92.52,133.62,94,133.71,96.69,132.58,95.16,133.83,96.19
148.11,94.36,148.35,93.95,147.07,91.78,148.39,93.98,148.3,93.15,148.03,91.51,148.1,93.48,148.2,96.13,147.06,94.86,148.31,95.72
162.6,93.94,162.84,93.16,161.55,90.85,162.87,92.73,162.79,92.54,162.52,90.64,162.59,92.86,162.68,95.21,161.55,94.45,162.8,95.11
177.08,93.51,177.32,92.52,176.04,89.79,177.36,91.36,177.27,91.98,177,89.97,177.08,92.13,177.17,93.96,176.04,93.99,177.29,94.43
191.57,93.05,191.81,92,190.53,88.78,191.84,89.89,191.76,91.47,191.49,89.42,191.56,91.3,191.66,92.46,190.52,93.51,191.77,93.76
206.06,92.58,206.29,91.52,205.02,87.81,206.33,88.32,206.25,90.98,205.98,88.92,206.05,90.38,206.15,90.81,205.01,93.02,206.26,93.15
220.55,92.1,220.78,91.03,219.5,86.78,220.82,86.66,220.74,90.39,220.47,88.42,220.54,89.37,220.64,89,219.5,92.56,220.75,92.6
235.04,91.61,235.28,90.56,234,85.67,235.31,84.89,235.23,89.68,234.96,87.91,235.03,88.25,235.12,87.07,233.99,92.14,235.24,92.13
249.53,91.12,249.77,90.08,248.49,84.47,249.8,83.03,249.72,88.87,249.45,87.39,249.52,87.04,249.62,85.01,248.48,91.76,249.73,91.7
264.02,90.64,264.26,89.59,262.98,83.18,264.3,81.15,264.21,88.03,263.94,86.86,264.02,85.73,264.11,82.96,262.98,91.4,264.23,91.29
278.51,90.13,278.75,89.08,277.47,81.87,278.79,79.35,278.7,87.21,278.44,86.33,278.51,84.37,278.6,81.01,277.47,91.05,278.72,90.9
293.01,89.61,293.25,88.55,291.97,80.55,293.28,77.68,293.2,86.44,292.93,85.8,293,82.98,293.1,79.21,291.96,90.69,293.21,90.51
307.5,89.09,307.74,88.01,306.46,79.27,307.77,76.19,307.69,85.74,307.42,85.27,307.49,81.59,307.59,77.63,306.46,90.35,307.7,90.15
321.99,88.57,322.23,87.44,320.95,78.05,322.26,74.84,322.18,85.13,321.91,84.74,321.98,80.25,322.08,76.2,320.95,90.03,322.19,89.79
336.48,88.06,336.72,86.86,335.44,76.89,336.75,73.6,336.67,84.61,336.4,84.22,336.47,78.97,336.57,74.91,335.44,89.72,336.68,89.44
350.97,87.55,351.21,86.26,349.93,75.8,351.24,72.45,351.16,84.14,350.89,83.68,350.96,77.72,351.06,73.7,349.93,89.42,351.17,89.08
365.46,87.04,365.7,85.65,364.42,74.73,365.73,71.35,365.65,83.71,365.38,83.14,365.45,76.49,365.55,72.55,364.41,89.12,365.66,88.73
379.95,86.53,380.19,85.01,378.91,73.69,380.22,70.27,380.14,83.28,379.87,82.56,379.94,75.25,380.04,71.41,378.9,88.83,380.15,88.38
394.44,86,394.68,84.35,393.4,72.65,394.71,69.2,394.63,82.84,394.36,81.96,394.43,73.99,394.53,70.27,393.39,88.54,394.64,88.02
408.93,85.43,409.16,83.66,407.88,71.59,409.2,68.11,409.12,82.36,408.85,81.29,408.92,72.7,409.02,69.12,407.88,88.26,409.13,87.65
423.41,84.81,423.65,82.91,422.37,70.51,423.69,66.99,423.6,81.82,423.34,80.56,423.41,71.36,423.5,67.93,422.37,87.97,423.62,87.26
437.9,84.12,438.14,82.1,436.86,69.4,438.17,65.86,438.09,81.2,437.82,79.76,437.89,69.99,437.99,66.71,436.86,87.67,438.11,86.85
452.39,83.37,452.63,81.23,451.34,68.28,452.66,64.72,452.58,80.49,452.31,78.87,452.38,68.6,452.48,65.52,451.34,87.36,452.59,86.4
466.87,82.53,467.11,80.26,465.83,67.15,467.14,63.6,467.06,79.67,466.79,77.88,466.86,67.17,466.96,64.35,465.83,87.05,467.07,85.91
481.35,81.59,481.59,79.2,480.31,66.04,481.63,62.49,481.54,78.74,481.28,76.81,481.35,65.68,481.44,63.17,480.31,86.73,481.56,85.35
495.83,80.55,496.07,78.03,494.79,64.96,496.11,61.36,496.02,77.67,495.76,75.66,495.83,64.12,495.92,61.97,494.79,86.41,496.04,84.74
510.31,79.4,510.55,76.75,509.27,63.9,510.59,60.19,510.5,76.49,510.24,74.41,510.31,62.44,510.4,60.71,509.27,86.09,510.52,84.03
524.79,78.13,525.03,75.37,523.75,62.86,525.07,58.98,524.98,75.19,524.71,73.07,524.79,60.67,524.88,59.38,523.75,85.77,525,83.22
539.27,76.74,539.51,73.89,538.23,61.84,539.55,57.71,539.46,73.81,539.19,71.65,539.27,58.81,539.36,57.99,538.23,85.46,539.48,82.32
553.74,75.26,553.98,72.34,552.7,60.82,554.01,56.41,553.93,72.37,553.66,70.15,553.74,56.88,553.83,56.54,552.7,85.14,553.95,81.32
568.21,73.7,568.45,70.71,567.17,59.83,568.49,55.07,568.4,70.87,568.13,68.59,568.21,54.91,568.3,55.04,567.17,84.82,568.42,80.21
582.68,72.05,582.92,69.05,581.64,58.85,582.95,53.7,582.87,69.32,582.6,66.94,582.67,52.95,582.77,53.51,581.64,84.49,582.89,79.02
597.15,70.35,597.39,67.34,596.1,57.91,597.42,52.33,597.34,67.75,597.07,65.24,597.14,50.98,597.24,51.98,596.11,84.16,597.35,77.75
611.61,68.59,611.85,65.61,610.56,56.99,611.88,50.96,611.8,66.14,611.53,63.52,611.6,49.06,611.7,50.42,610.57,83.81,611.81,76.41
626.07,66.81,626.31,63.89,625.03,56.11,626.34,49.61,626.26,64.55,625.99,61.79,626.06,47.16,626.16,48.88,625.04,83.46,626.28,75.02
640.53,64.99,640.77,62.17,639.48,55.27,640.8,48.29,640.72,62.95,640.45,60.06,640.52,45.37,640.62,47.39,639.49,83.1,640.73,73.58
654.98,63.22,655.22,60.47,653.94,54.48,655.26,47.02,655.17,61.37,654.9,58.34,654.98,43.63,655.07,45.93,653.95,82.73,655.19,72.11
669.43,61.43,669.67,58.78,668.39,53.75,669.7,45.8,669.62,59.83,669.36,56.65,669.43,41.97,669.52,44.54,668.4,82.36,669.64,70.61
683.88,59.68,684.12,57.14,682.84,53.09,684.15,44.65,684.07,58.3,683.8,54.98,683.88,40.4,683.97,43.21,682.85,81.98,684.09,69.09
698.33,57.96,698.57,55.52,697.29,52.48,698.6,43.57,698.52,56.88,698.25,53.37,698.33,38.9,698.42,41.96,697.29,81.62,698.53,67.57
712.77,56.32,713.01,53.97,711.73,51.93,713.04,42.56,712.96,55.49,712.69,51.8,712.77,37.48,712.86,40.78,711.74,81.27,712.98,66.06
727.21,54.78,727.45,52.48,726.17,51.44,727.48,41.61,727.4,54.14,727.13,50.3,727.21,36.13,727.3,39.67,726.18,80.94,727.42,64.58
741.65,53.3,741.88,51.04,740.61,50.98,741.92,40.71,741.84,52.83,741.57,48.85,741.64,34.84,741.74,38.62,740.61,80.62,741.85,63.13
756.08,51.87,756.32,49.65,755.04,50.58,756.35,39.87,756.27,51.57,756,47.44,756.07,33.6,756.17,37.62,755.05,80.31,756.28,61.72
770.51,50.5,770.75,48.31,769.47,50.21,770.78,39.07,770.7,50.34,770.43,46.1,770.5,32.4,770.6,36.66,769.48,80.02,770.71,60.35
784.93,49.17,785.17,47.01,783.89,49.88,785.2,38.3,785.12,49.13,784.85,44.79,784.93,31.25,785.02,35.73,783.9,79.74,785.14,59
799.36,47.88,799.59,45.74,798.31,49.58,799.62,37.57,799.54,47.96,799.27,43.53,799.35,30.13,799.45,34.84,798.32,79.47,799.56,57.7
813.77,46.61,814.01,44.49,812.73,49.31,814.04,36.85,813.96,46.81,813.69,42.3,813.77,29.04,813.86,33.96,812.74,79.21,813.98,56.41
828.19,45.36,828.43,43.26,827.14,49.07,828.46,36.15,828.38,45.67,828.11,41.1,828.18,27.97,828.28,33.1,827.16,78.94,828.39,55.16
842.6,44.14,842.84,42.06,841.56,48.85,842.87,35.47,842.79,44.54,842.52,39.92,842.59,26.93,842.69,32.25,841.57,78.68,842.81,53.91
857.01,42.91,857.25,40.86,855.96,48.65,857.28,34.79,857.2,43.41,856.93,38.76,857,25.91,857.1,31.42,855.98,78.42,857.21,52.67
871.41,41.69,871.65,39.67,870.37,48.45,871.68,34.13,871.6,42.26,871.33,37.61,871.41,24.91,871.5,30.59,870.38,78.14,871.62,51.43
885.81,40.47,886.06,38.47,884.77,48.27,886.09,33.47,886,41.09,885.73,36.46,885.81,23.93,885.91,29.78,884.78,77.87,886.02,50.17
900.21,39.22,900.45,37.25,899.17,48.07,900.48,32.82,900.4,39.87,900.13,35.3,900.21,22.98,900.3,28.98,899.18,77.57,900.41,48.9
914.6,37.95,914.84,36.02,913.57,47.88,914.88,32.18,914.79,38.59,914.52,34.12,914.6,22.04,914.7,28.19,913.58,77.27,914.81,47.58
929,36.65,929.23,34.75,927.96,47.69,929.27,31.54,929.18,37.25,928.92,32.9,929,21.12,929.09,27.4,927.97,76.95,929.2,46.19
943.38,35.31,943.62,33.44,942.35,47.49,943.66,30.9,943.57,35.81,943.3,31.64,943.39,20.2,943.48,26.63,942.36,76.62,943.59,44.73
957.77,33.95,958.01,32.08,956.74,47.28,958.05,30.23,957.95,34.3,957.69,30.33,957.77,19.28,957.87,25.85,956.74,76.27,957.97,43.16
972.15,32.55,972.39,30.68,971.12,47.07,972.43,29.61,972.34,32.71,972.07,28.95,972.16,18.35,972.25,25.08,971.13,75.92,972.36,41.5
986.53,31.11,986.77,29.25,985.5,46.84,986.81,28.98,986.71,31.12,986.44,27.51,986.54,17.44,986.63,24.31,985.5,75.55,986.73,39.78
997.05,29.25,996.63,27.49,999.8,46.61,996.58,28.22,996.67,29.41,997.3,25.91,997.05,16.37,997.21,23.41,999.81,75.17,996.68,37.81
997.64,10.42,997.67,8.67,997.48,35.32,997.67,13.41,997.66,11.54,997.62,10.98,997.51,4.018,997.63,8.068,997.51,59.65,997.66,17.23
998.7,3.227,998.72,3.012,998.66,15.42,998.7,2.996,998.71,5.302,998.7,6.932,998.73,4.025,998.71,3.025,998.68,33.33,998.7,5.585
999.32,3.199,999.33,3.01,999.23,6.714,999.33,3.006,999.32,5.27,999.31,6.909,999.32,4.025,999.32,3.027,999.28,10.1,999.32,5.579
999.64,3.171,999.64,3.009,999.61,6.716,999.64,3.011,999.64,5.24,999.64,6.895,999.64,4.026,999.64,3.031,999.59,5.721,999.64,5.563
999.81,3.145,999.81,3.004,999.8,6.715,999.81,3.015,999.81,5.219,999.81,6.885,999.81,4.027,999.81,3.035,999.79,5.684,999.81,5.545
999.9,3.137,999.9,2.999,999.89,6.718,999.9,3.018,999.9,5.201,999.9,6.874,999.9,4.03,999.9,3.036,999.89,5.651,999.9,5.536
999.95,3.122,999.95,2.995,999.95,6.719,999.95,3.017,999.95,5.19,999.95,6.867,999.95,4.031,999.95,3.041,999.95,5.639,999.95,5.523
999.97,3.115,999.98,2.991,999.97,6.722,999.98,3.018,999.98,5.184,999.98,6.858,999.97,4.03,999.97,3.042,999.97,5.622,999.97,5.515
999.99,3.113,999.99,2.988,999.99,6.721,999.99,3.023,999.99,5.168,999.99,6.857,999.99,4.03,999.99,3.045,999.99,5.614,999.99,5.505
999.99,3.104,1000,2.988,1000,6.724,1000,3.025,999.99,5.166,1000,6.846,1000,4.027,1000,3.043,999.99,5.606,1000,5.498
1000,3.102,1000,2.989,1000,6.729,1000,3.023,1000,5.158,1000,6.848,1000,4.033,1000,3.046,1000,5.597,1000,5.488
,,999.99,3.385,,,,,,,,,,,,,,,,
,,999.99,3.391,,,,,,,,,,,,,,,,
,,1000,3.392,,,,,,,,,,,,,,,,